{
  "resourceType": "Immunization",
  "id": "11112222-3333-4444-5555-666677779999",
  "contained": [
    {
      "resourceType": "Practitioner",
      "id": "Practitioner1",
      "name": [
        {
          "family": "User",
          "given": ["Test"]
        }
      ]
    },
    {
      "resourceType": "Patient",
      "id": "Patient1",
      "identifier": [
        {
          "system": "https://fhir.nhs.uk/Id/nhs-number",
          "value": "9994133152"
        }
      ],
      "name": [
        {
          "family": "Abernathy",
          "given": ["Cameron"]
        }
      ],
      "gender": "unknown",
      "birthDate": "2011-05-18",
      "address": [
        {
          "postalCode": "CV1 2GY"
        }
      ]
    }
  ],
  "extension": [
    {
      "url": "https://fhir.hl7.org.uk/StructureDefinition/Extension-UKCore-VaccinationProcedure",
      "valueCodeableConcept": {
        "coding": [
          {
            "system": "http://snomed.info/sct",
            "code": "884861000000100",
            "display": "Seasonal influenza vaccination (procedure)"
          }
        ]
      }
    }
  ],
  "identifier": [
    {
      "system": "http://manage-vaccinations-in-schools.nhs.uk/vaccination_records",
      "value": "68aef549-601f-427c-b914-7e459238c4dd"
    }
  ],
  "status": "completed",
  "vaccineCode": {
    "coding": [
      {
        "system": "http://snomed.info/sct",
        "code": "43208811000001106",
        "display": "Fluenz (trivalent) vaccine nasal suspension 0.2ml unit dose (AstraZeneca UK Ltd) (product)"
      }
    ]
  },
  "patient": {
    "reference": "#Patient1"
  },
  "occurrenceDateTime": "2025-08-28T11:45:30+01:00",
  "recorded": "2025-08-28T11:45:36.835000+01:00",
  "primarySource": true,
  "location": {
    "identifier": {
      "value": "X99999",
      "system": "https://fhir.nhs.uk/Id/ods-organization-code",
      "use": "official",
      "type": {
        "coding": [
          {
            "system": "http://terminology.hl7.org/CodeSystem/v2-0203",
            "version": "Test version",
            "code": "123456",
            "display": "Location display",
            "userSelected": true
          }
        ],
        "text": "test string Location"
      },
      "period": {
        "start": "2000-01-01",
        "end": "2025-01-01"
      }
    }
  },
  "manufacturer": {
    "display": "AstraZeneca"
  },
  "lotNumber": "bb2222",
  "expirationDate": "2030-01-01",
  "site": {
    "coding": [
      {
        "system": "http://snomed.info/sct",
        "code": "279549004",
        "display": "Nasal cavity structure"
      }
    ]
  },
  "route": {
    "coding": [
      {
        "system": "http://snomed.info/sct",
        "code": "46713006",
        "display": "Nasal"
      }
    ]
  },
  "doseQuantity": {
    "value": 0.2,
    "unit": "ml",
    "system": "http://snomed.info/sct",
    "code": "258773002"
  },
  "performer": [
    {
      "actor": {
        "reference": "#Practitioner1"
      }
    },
    {
      "actor": {
        "type": "Organization",
        "identifier": {
          "system": "https://fhir.nhs.uk/Id/ods-organization-code",
          "value": "A9A5A"
        }
      }
    }
  ],
  "reasonCode": [
    {
      "coding": [
        {
          "system": "http://snomed.info/sct",
          "code": "723620004"
        }
      ]
    }
  ],
  "protocolApplied": [
    {
      "targetDisease": [
        {
          "coding": [
            {
              "system": "http://snomed.info/sct",
              "code": "6142004",
              "display": "Influenza"
            }
          ]
        }
      ],
      "doseNumberPositiveInt": 1
    }
  ]
}
